TIME,PCKT_ACC_X,PCKT_ACC_Y,PCKT_ACC_Z
24-May-2018 12:21:08,0.88515,-0.30245,0.2413
24-May-2018 12:21:08,0.88515,-0.30245,0.2413
24-May-2018 12:21:08,0.88515,-0.30245,0.2413
24-May-2018 12:21:08,0.88515,-0.30245,0.2413
24-May-2018 12:21:09,0.93202,-0.3457,0.14546
24-May-2018 12:21:09,0.93202,-0.3457,0.14546
24-May-2018 12:21:09,0.93202,-0.3457,0.14546
24-May-2018 12:21:09,0.93202,-0.3457,0.14546
24-May-2018 12:21:10,0.82405,-0.401966666666667,0.214833333333333
24-May-2018 12:21:10,0.82405,-0.401966666666667,0.214833333333333
24-May-2018 12:21:10,0.82405,-0.401966666666667,0.214833333333333
24-May-2018 12:21:10,0.82405,-0.401966666666667,0.214833333333333
24-May-2018 12:21:11,0.88562,-0.41014,0.16088
24-May-2018 12:21:11,0.88562,-0.41014,0.16088
24-May-2018 12:21:11,0.88562,-0.41014,0.16088
24-May-2018 12:21:11,0.88562,-0.41014,0.16088
24-May-2018 12:21:12,0.90824,-0.30152,0.26808
24-May-2018 12:21:12,0.90824,-0.30152,0.26808
24-May-2018 12:21:12,0.90824,-0.30152,0.26808
24-May-2018 12:21:12,0.90824,-0.30152,0.26808
24-May-2018 12:21:13,0.83505,-0.23825,0.53185
24-May-2018 12:21:13,0.83505,-0.23825,0.53185
24-May-2018 12:21:13,0.83505,-0.23825,0.53185
24-May-2018 12:21:13,0.83505,-0.23825,0.53185
24-May-2018 12:21:14,0.905457142857143,-0.428342857142857,0.116114285714286
24-May-2018 12:21:14,0.905457142857143,-0.428342857142857,0.116114285714286
24-May-2018 12:21:14,0.905457142857143,-0.428342857142857,0.116114285714286
24-May-2018 12:21:14,0.905457142857143,-0.428342857142857,0.116114285714286
24-May-2018 12:21:15,0.8629,-0.280966666666667,0.434566666666667
24-May-2018 12:21:15,0.8629,-0.280966666666667,0.434566666666667
24-May-2018 12:21:15,0.8629,-0.280966666666667,0.434566666666667
24-May-2018 12:21:15,0.8629,-0.280966666666667,0.434566666666667
24-May-2018 12:21:16,0.8898,-0.362016666666667,0.0643333333333333
24-May-2018 12:21:16,0.8898,-0.362016666666667,0.0643333333333333
24-May-2018 12:21:16,0.8898,-0.362016666666667,0.0643333333333333
24-May-2018 12:21:16,0.8898,-0.362016666666667,0.0643333333333333
24-May-2018 12:21:17,0.8609,-0.1691,0.542516666666667
24-May-2018 12:21:17,0.8609,-0.1691,0.542516666666667
24-May-2018 12:21:17,0.8609,-0.1691,0.542516666666667
24-May-2018 12:21:17,0.8609,-0.1691,0.542516666666667
24-May-2018 12:21:18,0.8458375,-0.426575,0.134075
24-May-2018 12:21:18,0.8458375,-0.426575,0.134075
24-May-2018 12:21:18,0.8458375,-0.426575,0.134075
24-May-2018 12:21:18,0.8458375,-0.426575,0.134075
24-May-2018 12:21:19,0.8916,-0.333975,0.423875
24-May-2018 12:21:19,0.8916,-0.333975,0.423875
24-May-2018 12:21:19,0.8916,-0.333975,0.423875
24-May-2018 12:21:19,0.8916,-0.333975,0.423875
24-May-2018 12:21:20,0.9039,-0.436275,0.056125
24-May-2018 12:21:20,0.9039,-0.436275,0.056125
24-May-2018 12:21:20,0.9039,-0.436275,0.056125
24-May-2018 12:21:20,0.9039,-0.436275,0.056125
24-May-2018 12:21:21,0.825866666666667,-0.4689,0.146716666666667
24-May-2018 12:21:21,0.825866666666667,-0.4689,0.146716666666667
24-May-2018 12:21:21,0.825866666666667,-0.4689,0.146716666666667
24-May-2018 12:21:21,0.825866666666667,-0.4689,0.146716666666667
24-May-2018 12:21:22,0.885383333333333,-0.391616666666667,0.183833333333333
24-May-2018 12:21:22,0.885383333333333,-0.391616666666667,0.183833333333333
24-May-2018 12:21:22,0.885383333333333,-0.391616666666667,0.183833333333333
24-May-2018 12:21:22,0.885383333333333,-0.391616666666667,0.183833333333333
24-May-2018 12:21:23,0.856533333333333,-0.284633333333333,0.314533333333333
24-May-2018 12:21:23,0.856533333333333,-0.284633333333333,0.314533333333333
24-May-2018 12:21:23,0.856533333333333,-0.284633333333333,0.314533333333333
24-May-2018 12:21:23,0.856533333333333,-0.284633333333333,0.314533333333333
24-May-2018 12:21:24,0.86726,-0.3001,0.316
24-May-2018 12:21:24,0.86726,-0.3001,0.316
24-May-2018 12:21:24,0.86726,-0.3001,0.316
24-May-2018 12:21:24,0.86726,-0.3001,0.316
24-May-2018 12:21:25,0.85218,-0.38708,0.03856
24-May-2018 12:21:25,0.85218,-0.38708,0.03856
24-May-2018 12:21:25,0.85218,-0.38708,0.03856
24-May-2018 12:21:25,0.85218,-0.38708,0.03856
24-May-2018 12:21:26,0.801216666666667,-0.201883333333333,0.481916666666667
24-May-2018 12:21:26,0.801216666666667,-0.201883333333333,0.481916666666667
24-May-2018 12:21:26,0.801216666666667,-0.201883333333333,0.481916666666667
24-May-2018 12:21:26,0.801216666666667,-0.201883333333333,0.481916666666667
24-May-2018 12:21:27,0.9277,-0.4467,0.2056
24-May-2018 12:21:27,0.9277,-0.4467,0.2056
24-May-2018 12:21:27,0.9277,-0.4467,0.2056
24-May-2018 12:21:27,0.9277,-0.4467,0.2056
24-May-2018 12:21:28,0.8523,-0.372355555555556,0.1784
24-May-2018 12:21:28,0.8523,-0.372355555555556,0.1784
24-May-2018 12:21:28,0.8523,-0.372355555555556,0.1784
24-May-2018 12:21:28,0.8523,-0.372355555555556,0.1784
24-May-2018 12:21:29,0.864542857142857,-0.332471428571429,0.1407
24-May-2018 12:21:29,0.864542857142857,-0.332471428571429,0.1407
24-May-2018 12:21:29,0.864542857142857,-0.332471428571429,0.1407
24-May-2018 12:21:29,0.864542857142857,-0.332471428571429,0.1407
24-May-2018 12:21:30,0.84875,-0.34655,0.261916666666667
24-May-2018 12:21:30,0.84875,-0.34655,0.261916666666667
24-May-2018 12:21:30,0.84875,-0.34655,0.261916666666667
24-May-2018 12:21:30,0.84875,-0.34655,0.261916666666667
24-May-2018 12:21:31,0.9236,-0.4629,-0.836285714285714
24-May-2018 12:21:31,0.9236,-0.4629,-0.836285714285714
24-May-2018 12:21:31,0.9236,-0.4629,-0.836285714285714
24-May-2018 12:21:31,0.9236,-0.4629,-0.836285714285714
24-May-2018 12:21:32,0.855925,-0.272825,0.53725
24-May-2018 12:21:32,0.855925,-0.272825,0.53725
24-May-2018 12:21:32,0.855925,-0.272825,0.53725
24-May-2018 12:21:32,0.855925,-0.272825,0.53725
24-May-2018 12:21:33,0.893257142857143,-0.476442857142857,0.162157142857143
24-May-2018 12:21:33,0.893257142857143,-0.476442857142857,0.162157142857143
24-May-2018 12:21:33,0.893257142857143,-0.476442857142857,0.162157142857143
24-May-2018 12:21:33,0.893257142857143,-0.476442857142857,0.162157142857143
24-May-2018 12:21:34,0.831983333333333,-0.401516666666667,0.300066666666667
24-May-2018 12:21:34,0.831983333333333,-0.401516666666667,0.300066666666667
24-May-2018 12:21:34,0.831983333333333,-0.401516666666667,0.300066666666667
24-May-2018 12:21:34,0.831983333333333,-0.401516666666667,0.300066666666667
24-May-2018 12:21:35,0.898683333333333,-0.3421,-0.0093166666666666
24-May-2018 12:21:35,0.898683333333333,-0.3421,-0.0093166666666666
24-May-2018 12:21:35,0.898683333333333,-0.3421,-0.0093166666666666
24-May-2018 12:21:35,0.898683333333333,-0.3421,-0.0093166666666666
24-May-2018 12:21:36,0.85826,-0.27952,0.50574
24-May-2018 12:21:36,0.85826,-0.27952,0.50574
24-May-2018 12:21:36,0.85826,-0.27952,0.50574
24-May-2018 12:21:36,0.85826,-0.27952,0.50574
24-May-2018 12:21:37,0.837283333333333,-0.479616666666667,0.12455
24-May-2018 12:21:37,0.837283333333333,-0.479616666666667,0.12455
24-May-2018 12:21:37,0.837283333333333,-0.479616666666667,0.12455
24-May-2018 12:21:37,0.837283333333333,-0.479616666666667,0.12455
24-May-2018 12:21:38,0.81934,-0.23896,0.44226
24-May-2018 12:21:38,0.81934,-0.23896,0.44226
24-May-2018 12:21:38,0.81934,-0.23896,0.44226
24-May-2018 12:21:38,0.81934,-0.23896,0.44226
24-May-2018 12:21:39,0.840783333333333,-0.40505,0.160566666666667
24-May-2018 12:21:39,0.840783333333333,-0.40505,0.160566666666667
24-May-2018 12:21:39,0.840783333333333,-0.40505,0.160566666666667
24-May-2018 12:21:39,0.840783333333333,-0.40505,0.160566666666667
24-May-2018 12:21:40,0.9197,-0.22288,0.34252
24-May-2018 12:21:40,0.9197,-0.22288,0.34252
24-May-2018 12:21:40,0.9197,-0.22288,0.34252
24-May-2018 12:21:40,0.9197,-0.22288,0.34252
24-May-2018 12:21:41,0.875514285714286,-0.430485714285714,0.0828857142857143
24-May-2018 12:21:41,0.875514285714286,-0.430485714285714,0.0828857142857143
24-May-2018 12:21:41,0.875514285714286,-0.430485714285714,0.0828857142857143
24-May-2018 12:21:41,0.875514285714286,-0.430485714285714,0.0828857142857143
24-May-2018 12:21:42,0.979925,-0.286225,0.4344
24-May-2018 12:21:42,0.979925,-0.286225,0.4344
24-May-2018 12:21:42,0.979925,-0.286225,0.4344
24-May-2018 12:21:42,0.979925,-0.286225,0.4344
24-May-2018 12:21:43,0.94318,-0.43298,0.11132
24-May-2018 12:21:43,0.94318,-0.43298,0.11132
24-May-2018 12:21:43,0.94318,-0.43298,0.11132
24-May-2018 12:21:43,0.94318,-0.43298,0.11132
24-May-2018 12:21:44,0.82655,-0.3391,0.407116666666667
24-May-2018 12:21:44,0.82655,-0.3391,0.407116666666667
24-May-2018 12:21:44,0.82655,-0.3391,0.407116666666667
24-May-2018 12:21:44,0.82655,-0.3391,0.407116666666667
24-May-2018 12:21:45,0.863683333333333,-0.3674,-0.0563166666666667
24-May-2018 12:21:45,0.863683333333333,-0.3674,-0.0563166666666667
24-May-2018 12:21:45,0.863683333333333,-0.3674,-0.0563166666666667
24-May-2018 12:21:45,0.863683333333333,-0.3674,-0.0563166666666667
24-May-2018 12:21:46,0.868228571428571,-0.224328571428571,0.498757142857143
24-May-2018 12:21:46,0.868228571428571,-0.224328571428571,0.498757142857143
24-May-2018 12:21:46,0.868228571428571,-0.224328571428571,0.498757142857143
24-May-2018 12:21:46,0.868228571428571,-0.224328571428571,0.498757142857143
24-May-2018 12:21:47,0.8339,-0.437566666666667,0.249966666666667
24-May-2018 12:21:47,0.8339,-0.437566666666667,0.249966666666667
24-May-2018 12:21:47,0.8339,-0.437566666666667,0.249966666666667
24-May-2018 12:21:47,0.8339,-0.437566666666667,0.249966666666667
24-May-2018 12:21:48,0.795866666666667,-0.341083333333333,0.299483333333333
24-May-2018 12:21:48,0.795866666666667,-0.341083333333333,0.299483333333333
24-May-2018 12:21:48,0.795866666666667,-0.341083333333333,0.299483333333333
24-May-2018 12:21:48,0.795866666666667,-0.341083333333333,0.299483333333333
24-May-2018 12:21:49,1.01636,-0.45188,0.1443
24-May-2018 12:21:49,1.01636,-0.45188,0.1443
24-May-2018 12:21:49,1.01636,-0.45188,0.1443
24-May-2018 12:21:49,1.01636,-0.45188,0.1443
24-May-2018 12:21:50,0.863942857142857,-0.424728571428571,0.330114285714286
24-May-2018 12:21:50,0.863942857142857,-0.424728571428571,0.330114285714286
24-May-2018 12:21:50,0.863942857142857,-0.424728571428571,0.330114285714286
24-May-2018 12:21:50,0.863942857142857,-0.424728571428571,0.330114285714286
24-May-2018 12:21:51,0.84168,-0.49696,-0.00254
24-May-2018 12:21:51,0.84168,-0.49696,-0.00254
24-May-2018 12:21:51,0.84168,-0.49696,-0.00254
24-May-2018 12:21:51,0.84168,-0.49696,-0.00254
24-May-2018 12:21:52,0.8351,-0.477514285714286,0.0639142857142857
24-May-2018 12:21:52,0.8351,-0.477514285714286,0.0639142857142857
24-May-2018 12:21:52,0.8351,-0.477514285714286,0.0639142857142857
24-May-2018 12:21:52,0.8351,-0.477514285714286,0.0639142857142857
24-May-2018 12:21:53,0.817025,-0.389,0.340575
24-May-2018 12:21:53,0.817025,-0.389,0.340575
24-May-2018 12:21:53,0.817025,-0.389,0.340575
24-May-2018 12:21:53,0.817025,-0.389,0.340575
24-May-2018 12:21:54,0.904133333333333,-0.37735,0.254866666666667
24-May-2018 12:21:54,0.904133333333333,-0.37735,0.254866666666667
24-May-2018 12:21:54,0.904133333333333,-0.37735,0.254866666666667
24-May-2018 12:21:54,0.904133333333333,-0.37735,0.254866666666667
24-May-2018 12:21:55,0.8655,-0.388875,0.054325
24-May-2018 12:21:55,0.8655,-0.388875,0.054325
24-May-2018 12:21:55,0.8655,-0.388875,0.054325
24-May-2018 12:21:55,0.8655,-0.388875,0.054325
24-May-2018 12:21:56,0.889266666666667,-0.300483333333333,0.208516666666667
24-May-2018 12:21:56,0.889266666666667,-0.300483333333333,0.208516666666667
24-May-2018 12:21:56,0.889266666666667,-0.300483333333333,0.208516666666667
24-May-2018 12:21:56,0.889266666666667,-0.300483333333333,0.208516666666667
24-May-2018 12:21:57,0.8979,-0.274216666666667,0.473033333333333
24-May-2018 12:21:57,0.8979,-0.274216666666667,0.473033333333333
24-May-2018 12:21:57,0.8979,-0.274216666666667,0.473033333333333
24-May-2018 12:21:57,0.8979,-0.274216666666667,0.473033333333333
24-May-2018 12:21:58,0.89418,-0.42976,0.1217
24-May-2018 12:21:58,0.89418,-0.42976,0.1217
24-May-2018 12:21:58,0.89418,-0.42976,0.1217
24-May-2018 12:21:58,0.89418,-0.42976,0.1217
24-May-2018 12:21:59,0.83425,-0.3153,0.423175
24-May-2018 12:21:59,0.83425,-0.3153,0.423175
24-May-2018 12:21:59,0.83425,-0.3153,0.423175
24-May-2018 12:21:59,0.83425,-0.3153,0.423175
24-May-2018 12:22:00,0.8316,-0.352916666666667,0.240483333333333
24-May-2018 12:22:00,0.8316,-0.352916666666667,0.240483333333333
24-May-2018 12:22:00,0.8316,-0.352916666666667,0.240483333333333
24-May-2018 12:22:00,0.8316,-0.352916666666667,0.240483333333333
24-May-2018 12:22:01,0.971733333333333,-0.34815,0.208183333333333
24-May-2018 12:22:01,0.971733333333333,-0.34815,0.208183333333333
24-May-2018 12:22:01,0.971733333333333,-0.34815,0.208183333333333
24-May-2018 12:22:01,0.971733333333333,-0.34815,0.208183333333333
24-May-2018 12:22:02,0.82152,-0.44602,0.169
24-May-2018 12:22:02,0.82152,-0.44602,0.169
24-May-2018 12:22:02,0.82152,-0.44602,0.169
24-May-2018 12:22:02,0.82152,-0.44602,0.169
24-May-2018 12:22:03,0.817133333333333,-0.378166666666667,0.230583333333333
24-May-2018 12:22:03,0.817133333333333,-0.378166666666667,0.230583333333333
24-May-2018 12:22:03,0.817133333333333,-0.378166666666667,0.230583333333333
24-May-2018 12:22:03,0.817133333333333,-0.378166666666667,0.230583333333333
24-May-2018 12:22:04,0.838985714285714,-0.404928571428571,0.254242857142857
24-May-2018 12:22:04,0.838985714285714,-0.404928571428571,0.254242857142857
24-May-2018 12:22:04,0.838985714285714,-0.404928571428571,0.254242857142857
24-May-2018 12:22:04,0.838985714285714,-0.404928571428571,0.254242857142857
24-May-2018 12:22:05,0.866971428571429,-0.459685714285714,0.162857142857143
24-May-2018 12:22:05,0.866971428571429,-0.459685714285714,0.162857142857143
24-May-2018 12:22:05,0.866971428571429,-0.459685714285714,0.162857142857143
24-May-2018 12:22:05,0.866971428571429,-0.459685714285714,0.162857142857143
24-May-2018 12:22:06,0.91645,-0.275883333333333,0.2112
24-May-2018 12:22:06,0.91645,-0.275883333333333,0.2112
24-May-2018 12:22:06,0.91645,-0.275883333333333,0.2112
24-May-2018 12:22:06,0.91645,-0.275883333333333,0.2112
24-May-2018 12:22:07,0.8831625,-0.3746625,0.0802625
24-May-2018 12:22:07,0.8831625,-0.3746625,0.0802625
24-May-2018 12:22:07,0.8831625,-0.3746625,0.0802625
24-May-2018 12:22:07,0.8831625,-0.3746625,0.0802625
